Folder: python_experimental/Ramma/Dados/RAMAN_Dados

Note: Ramma/Dados/RAMAN_Dados/Info_WS2.txt
****************************************************
INFORMAÇÕES ESPECTRAIS:
****************************************************
AMOSTRA WS2
****************************************************
Single Spectrum_067

General:
System ID:	100-1400-1232
Time:	11:07:01 AM
Date:	Friday, November 08, 2024
User Name:	user
Sample Name:	
Configuration:	Raman CCD1

UHTS300S_VIS:
Excitation Wavelength [nm]:	532.057
Grating:	G2: 1800 g/mm BLZ=500nm
Center Wavelength [nm]:	551.117
Spectral Center [rel. 1/cm]:	649.999

DU970P_BVF:
Width [Pixels]:	1600
Height [Pixels]:	200
Temperature [°C]:	-59
Integration Time [s]:	10.13610
Camera Serial Nr.:	19267
AD Converters:	AD1 (16Bit)
Output Amplifier:	Conventional
Vertical Shift Speed [µs]:	9.68
Horizontal Shift Speed [MHz]:	0.05
Preamplifier Gain:	4
EMCCD Gain:	0
ReadMode:	Single Track (Row 1 -> 100)

Number Of Accumulations:	10
Integration Time [s]:	10.13610

Objective:
Objective Name:	Nikon CF Plan ELWD 50x / 0.55
Objective Magnification:	50.0

Sample Location (global position):
Position X [µm]:	8512.967
Position Y [µm]:	-3416.130
Position Z [µm]:	0.000

****************************************************

Note: Ramma/Dados/RAMAN_Dados/MoSe2-532nm-30s-10acc-obj100x-250mW.txt
96.4178	30.7778
96.9429	27.6667
97.4701	40.5556
97.9973	44.7778
98.5245	44.7778
99.0517	49
99.5788	54.7778
100.106	49
100.633	44.1111
101.16	43.4444
101.685	40.3333
102.212	42.3333
102.739	41.2222
103.266	44.5556
103.793	43
104.319	45.2222
104.844	44.1111
105.371	48.3333
105.898	53.4444
106.424	58.5556
106.951	61.6667
107.478	64.1111
108.002	70.3333
108.529	69.8889
109.056	68.7778
109.582	75
110.107	77.8889
110.633	77
111.16	77.8889
111.686	75.6667
112.212	73.8889
112.737	78.5556
113.263	75.2222
113.789	74.7778
114.316	79.4444
114.84	81.8889
115.366	81
115.892	79.4444
116.416	78.3333
116.942	76.7778
117.468	83.8889
117.995	85.2222
118.519	81.2222
119.045	78.7778
119.571	82.7778
120.094	89
120.62	87.6667
121.146	95.2222
121.67	92.1111
122.196	99.4444
122.722	107
123.245	114.556
123.771	117.889
124.297	105.667
124.82	107
125.346	110.333
125.872	109
126.395	112.333
126.921	109.222
127.444	117
127.97	113.889
128.495	111.889
129.019	115.444
129.544	117.889
130.067	113.444
130.593	123.222
131.118	118.778
131.641	114.778
132.166	115.667
132.69	113.444
133.215	111.889
133.738	117.889
134.263	125.222
134.786	123.444
135.311	125
135.834	129.889
136.359	136.556
136.884	136.556
137.407	146.556
137.932	146.333
138.455	151.889
138.98	164.333
139.503	163.889
140.027	163.667
140.55	161
141.073	161
141.598	163
142.12	166.111
142.645	167
143.167	165
143.692	162.778
144.215	167.444
144.739	169
145.262	170.333
145.786	171
146.308	168.111
146.831	183.444
147.355	174.556
147.877	174.778
148.402	167.667
148.924	170.778
149.446	178.333
149.971	175.889
150.493	176.778
151.017	175.667
151.539	171.222
152.061	171.222
152.585	154.778
153.107	155.889
153.629	151.222
154.153	147.667
154.675	148.333
155.197	141.667
155.721	144.556
156.243	135.889
156.765	131
157.288	130.111
157.81	133.667
158.332	131.667
158.856	127.444
159.377	127.222
159.899	133
160.42	128.556
160.944	126.556
161.466	131.222
161.987	132.556
162.511	133
163.032	132.556
163.554	138.778
164.075	143.667
164.598	138.556
165.12	133
165.641	145
166.162	145.222
166.684	150.111
167.207	165.444
167.728	171.889
168.249	194.556
168.77	266.778
169.294	345.667
169.815	315
170.336	223.889
170.857	169.444
171.378	150.333
171.898	135.222
172.422	127.222
172.942	131
173.463	123.667
173.984	122.333
174.505	119
175.026	114.333
175.546	114.778
176.069	110.778
176.59	106.111
177.111	105
177.631	107.222
178.152	106.111
178.672	108.111
179.193	104.111
179.713	107
180.234	101.667
180.756	105.222
181.277	103.889
181.797	103.222
182.318	103.889
182.838	102.778
183.358	104.778
183.878	102.111
184.399	108.556
184.919	102.333
185.439	100.111
185.959	97.4444
186.479	106.778
186.999	103
187.519	101.222
188.04	99.2222
188.56	100.778
189.08	104.111
189.599	100.111
190.119	99.6667
190.639	103.667
191.159	98.5556
191.679	104.556
192.199	99.4444
192.719	100.333
193.238	98.1111
193.758	109.222
194.278	108.556
194.797	104.333
195.317	105
195.837	101.667
196.356	95.8889
196.874	103
197.393	102.556
197.913	100.778
198.432	102.333
198.951	99.8889
19

Note: Ramma/Dados/RAMAN_Dados/MoSeS-532nm-30s-10acc-obj100x-gr1800-45mi.txt
96.4178	55.6667
96.9429	71.2222
97.4701	95.6667
97.9973	117.444
98.5245	126.778
99.0517	142.333
99.5788	155.222
100.106	146.111
100.633	141.889
101.16	131.444
101.685	124.111
102.212	120.111
102.739	114.333
103.266	118.333
103.793	117.667
104.319	117
104.844	123.222
105.371	133.667
105.898	138.111
106.424	147.222
106.951	154.333
107.478	168.778
108.002	185.889
108.529	210.556
109.056	225.889
109.582	250.111
110.107	273.444
110.633	277.444
111.16	291.222
111.686	296.111
112.212	282.111
112.737	274.333
113.263	269
113.789	268.556
114.316	265.222
114.84	254.333
115.366	263.889
115.892	257.444
116.416	268.111
116.942	257
117.468	269.444
117.995	255.444
118.519	267
119.045	268.111
119.571	271
120.094	285
120.62	292.778
121.146	291.222
121.67	293.222
122.196	295.444
122.722	303.222
123.245	307.667
123.771	307.667
124.297	313.222
124.82	304.556
125.346	307.667
125.872	309.444
126.395	315
126.921	309.222
127.444	304.333
127.97	299.222
128.495	298.333
129.019	302.111
129.544	303.889
130.067	304.778
130.593	302.778
131.118	299.889
131.641	308.556
132.166	295.444
132.69	300.333
133.215	301.667
133.738	298.333
134.263	291.667
134.786	299.444
135.311	298.111
135.834	295.889
136.359	287.444
136.884	288.556
137.407	301.667
137.932	293.222
138.455	293.667
138.98	299.667
139.503	293.222
140.027	295.444
140.55	302.556
141.073	297.444
141.598	300.556
142.12	298.333
142.645	295.667
143.167	301.667
143.692	298.778
144.215	302.333
144.739	299.889
145.262	301
145.786	295.222
146.308	300.111
146.831	305.889
147.355	305.667
147.877	300.778
148.402	300.778
148.924	308.556
149.446	305
149.971	300.333
150.493	297.222
151.017	315.667
151.539	308.333
152.061	316.556
152.585	314.111
153.107	312.111
153.629	312.333
154.153	317.667
154.675	311
155.197	312.333
155.721	312.333
156.243	313
156.765	307.889
157.288	308.778
157.81	311.444
158.332	309.222
158.856	314.556
159.377	317.889
159.899	317
160.42	314.556
160.944	316.111
161.466	327.889
161.987	321.667
162.511	322.333
163.032	318.556
163.554	318.333
164.075	323.444
164.598	317
165.12	324.556
165.641	328.556
166.162	329.444
166.684	345.222
167.207	332.333
167.728	334.778
168.249	337.889
168.77	342.111
169.294	349
169.815	347.444
170.336	339.222
170.857	342.111
171.378	354.556
171.898	353.222
172.422	345.222
172.942	365.667
173.463	360.556
173.984	361
174.505	358.111
175.026	370.778
175.546	371.667
176.069	374.556
176.59	371
177.111	379.444
177.631	372.111
178.152	387.889
178.672	380.778
179.193	388.111
179.713	390.556
180.234	383.667
180.756	397
181.277	392.778
181.797	368.333
182.318	377
182.838	384.111
183.358	372.111
183.878	374.333
184.399	372.333
184.919	372.111
185.439	356.556
185.959	357
186.479	360.111
186.999	349
187.519	347
188.04	337.667
188.56	331.222
189.08	324.556
189.599	318.556
190.119	312.333
190.639	305.222
191.159	301
191.679	298.111
192.199	296.111
192.719	296.556
193.238	299.444
193.758	292.556
194.278	300.778
194.797	288.556
195.317	289.889
195.837	297
196.356	294.111
196.874	293.444
197.393	289.889
197.913

File: MoS2.txt
44.56800	1307.30
49.36370	1303.40
54.15520	1308.60
58.94250	1311.90
63.72580	1321.90
68.50490	1352.60
73.27980	1371.60
78.05070	1382.40
82.81740	1385.30
87.58000	1370.90
92.33860	1395.00
97.09300	1375.40
101.843	1383.80
106.59	1405.20
111.332	1392.40
116.07	1405.90
120.804	1408.50
125.534	1439.90
130.26	1447.50
134.982	1461.70
139.7	1478.30
144.414	1487.30
149.124	1505.80
153.83	1492.50
158.532	1475.50
163.229	1458.70
167.923	1458.50
172.613	1473.80
177.299	1501.70
181.981	1481.80
186.659	1500.80
191.333	1502.10
196.003	1470.60
200.669	1458.40
205.332	1468.20
209.99	1476.70
214.644	1461.30
219.295	1467.50
223.941	1456.50
228.584	1457.30
233.223	1441.60
237.857	1441.40
242.488	1431.60
247.116	1432.10
251.739	1431.20
256.358	1429.10
260.974	1419.10
265.585	1428.90
270.193	1417.70
274.797	1425.90
279.397	1421.30
283.994	1430.20
288.586	1427.20
293.175	1418.30
297.76	1419.60
302.341	1429.50
306.918	1429.10
311.491	1436.10
316.061	1436.30
320.627	1441.70
325.189	1447.10
329.748	1454.40
334.302	1464.90
338.853	1464.90
343.401	1477.30
347.944	1477.40
352.484	1489.40
357.02	1518.80
361.552	1522.60
366.08	1559.30
370.605	1658.40
375.127	2004.10
379.644	4638.90
384.158	2142.30
388.668	1642.40
393.174	1672.30
397.677	1857.90
402.176	2802.30
406.672	9349.30
411.163	2618.20
415.652	1789.40
420.136	1702.00
424.617	1668.10
429.094	1676.50
433.568	1685.90
438.038	1722.50
442.504	1775.00
446.967	1883.70
451.426	1901.40
455.882	1811.50
460.334	1782.20
464.783	1738.20
469.227	1538.80
473.669	1451.30
478.107	1430.10
482.541	1429.20
486.972	1428.20
491.399	1426.20
495.822	1438.80
500.242	1442.10
504.659	1440.50
509.072	1442.50
513.482	1444.70
517.888	1451.90
522.29	1453.80
526.689	1466.10
531.085	1468.50
535.477	1460.80
539.865	1469.90
544.25	1481.00
548.632	1494.20
553.01	1500.70
557.385	1543.80
561.756	1549.40
566.124	1596.80
570.489	1589.30
574.85	1546.70
579.207	1565.00
583.561	1593.10
587.912	1602.30
592.259	1622.80
596.603	1625.20
600.944	1515.80
605.281	1495.10
609.615	1483.10
613.945	1493.30
618.272	1484.30
622.595	1475.10
626.916	1486.50
631.233	1477.60
635.546	1470.10
639.856	1452.00
644.163	1418.30
648.467	1402.90
652.767	1389.20
657.064	1389.70
661.357	1392.50
665.648	1403.80
669.934	1397.90
674.218	1401.50
678.498	1393.40
682.775	1396.80
687.049	1393.50
691.32	1394.10
695.587	1416.50
699.851	1430.40
704.111	1431.70
708.369	1426.50
712.623	1413.10
716.874	1429.30
721.121	1446.00
725.366	1445.20
729.607	1450.10
733.845	1474.70
738.079	1481.90
742.311	1500.10
746.539	1511.50
750.764	1517.30
754.986	1489.60
759.205	1476.20
763.42	1446.40
767.633	1429.30
771.842	1442.90
776.048	1473.40
780.25	1454.10
784.45	1438.70
788.646	1419.20
792.84	1399.40
797.03	1393.20
801.217	1402.80
805.401	1407.80
809.581	1430.10
813.759	1431.70
817.933	1426.30
822.105	1409.80
826.273	1405.30
830.438	1386.70
834.6	1377.30
838.759	1373.90
842.914	1377.10
847.067	1381.50
851.217	1369.00
855.363	1379.80
859.507	1370.20
863.647	1364.50
867.784	1364.10
871.919	1363.40
876.05	1360.50
880.178	1367.20
884.303	1362.10
888.425	1357.60
892.544	1366.20
896.66	1369.30
900.773	1368.50
904.883	1358.40
908.99	1360.70
913.094	1362.50
917.195	1360.30
921.293	1362.90
925.388	1357.30
929.479	1363.20
933.568	1368.90
937.654	1358.40
941.737	1354.90
945.817	1353.90
949.894	1357.40
953.968	1356.90
958.039	1360.00
962.107	1358.00
966.173	1357.10
970.235	1358.20
974.294	1355.90
978.35	1360.10
982.404	1351.70
986.454	1357.50
990.502	1357.60
994.546	1350.80
998.588	1360.20
1002.63	1352.80
1006.66	1353.60
1010.7	1351.60
1014.73	1349.50
1018.75	1346.20
1022.78	1348.60
1026.8	1352.40
1030.82	1346.20
1034.83	1345.30
1038.85	1347.20
1042.86	1346.30
1046.86	1346.50
1050.87	1339.70
1054.87	1343.20
1058.87	1342.20
1062.86	1337.30
1066.86	1344.60
1070.85	1337.70
1074.83	1337.20
1078.82	1342.60
1082.8	1339.40
1086.78	1343.70
1090.75	1336.70
1094.73	1342.00
1098.7	1335.40
1102.66	1337.30
1106.63	1338.00
1110.59	1339.60
1114.55	1339.30
1118.51	1337.80
1122.46	1338.80
1126.41	1383.40
1130.36	1330.70
1134.3	1331.10
1138.25	1337.80
1142.19	1336.80
1146.12	1338.20
1150.06	1351.80
1153.99	1340.40
1157.92	1333.70
1161.84	1331.00
1165.77	1333.60
1169.69	1334.90
1173.6	1334.10
1177.52	1335.10
1181.43	1336.00
1185.34	1336.00
1189.25	1331.00
1193.15	1333.50
1195.1	1332.40